Folder: SiliCat/data/raman

File: r040.txt
#Wave		#Intensity
4002.11	4359.82
3992.33	4300.71
3982.52	4294.61
3972.68	4249.4
3962.83	4285.98
3952.95	4311.75
3943.05	4333.86
3933.13	4362.89
3923.19	4314.42
3913.22	4259.12
3903.24	4249.56
3893.22	4425.13
3883.19	4258.39
3873.14	4217.54
3863.06	4357.25
3852.96	4364.78
3842.83	4296.28
3832.69	4283.2
3822.52	4352.67
3812.32	4346.34
3802.11	4285.25
3791.87	4296.14
3781.61	4347.84
3771.33	4280.3
3761.02	4470.84
3750.69	4389.74
3740.33	4396.79
3729.96	4612.68
3719.56	4471.23
3709.13	4545.07
3698.69	4621.9
3688.22	4741.78
3677.72	4914.4
3667.21	4996.47
3656.66	5161.07
3646.1	5543.33
3635.51	5765.35
3624.9	6128.03
3614.26	6203.05
3603.6	6494.18
3592.92	6410.91
3582.21	6687.15
3571.48	6486.47
3560.72	6449.18
3549.94	6146.08
3539.14	6290.87
3528.31	6218.66
3517.46	6088.75
3506.58	5930.46
3495.68	5686.25
3484.75	5923.11
3473.8	5721.46
3462.83	5660.85
3451.82	5727.63
3440.8	5648.19
3429.75	5546.93
3418.68	5638.68
3407.58	5528.39
3396.45	5409.13
3385.3	5506.76
3374.13	5416.19
3362.93	5385.31
3351.71	5329.62
3340.46	5289.7
3329.18	5191.01
3317.88	5358.81
3306.55	5133.78
3295.2	5116.1
3283.83	5086.18
3272.42	4964.38
3261	4980.77
3249.54	5036.75
3238.06	4976.71
3226.56	5181.29
3215.03	5118.11
3203.47	5088.47
3191.88	5200.79
3180.28	5050.57
3168.64	5006.17
3156.98	5033.9
3145.29	4893.95
3133.58	5062.03
3121.84	5077.45
3110.07	4935.3
3098.27	5066.5
3086.45	4868.75
3074.61	4825.33
3062.73	5029.43
3050.83	4935.85
3038.91	5030.27
3026.95	4966.3
3014.97	4820.88
3002.96	4923.57
2990.93	4813.71
2978.87	4811.56
2966.78	4907.72
2954.66	5014.96
2942.51	4923.04
2930.34	4952.15
2918.14	5044.16
2905.92	4995.61
2893.66	4941.54
2881.38	4842.14
2869.07	4862.45
2856.73	5061.17
2844.37	4930.99
2831.97	4917.03
2819.55	4965.02
2807.1	5063.32
2794.62	5079.89
2782.11	5107.54
2769.58	5154.57
2757.02	5156.82
2744.42	5120.16
2731.8	5249.86
2719.16	5260.08
2706.48	5132.34
2693.77	5197.75
2681.04	5136.56
2668.27	5201.61
2655.48	5121.49
2642.66	5292.57
2629.8	5220.71
2616.92	5312
2604.01	5348.69
2591.07	5306.82
2578.1	5238.15
2565.11	5401.09
2552.08	5528.36
2539.02	5336.39
2525.93	5457.83
2512.82	5456.08
2499.67	5467.59
2486.49	5407.39
2473.28	5336.83
2460.05	5435.61
2446.78	5518.09
2433.48	5326.72
2420.15	5319.82
2406.79	5257.96
2393.4	5185.9
2379.98	5145.41
2366.53	5146.65
2353.05	5189.36
2339.54	5151.62
2325.99	5106.29
2312.42	4996.74
2298.81	4941.62
2285.18	4943.13
2271.51	4819.26
2257.81	4912.86
2244.08	4891.42
2230.32	4964.05
2216.52	4947.6
2202.7	4824.98
2188.84	4980.43
2174.95	4898.51
2161.03	5048
2147.08	5056.44
2133.09	4902.33
2119.07	5160.43
2105.02	5146.07
2090.94	5077.13
2076.83	5015.9
2062.68	5061.19
2048.5	5244.31
2034.29	5005.91
2020.04	5190.71
2005.76	4943.67
1991.45	4827.21
1977.1	4835.57
1962.72	4984.89
1948.31	4844.79
1933.87	4780.34
1919.39	4880.36
1904.88	4869.07
1890.33	4891.45
1875.75	4870.53
1861.14	4797.04
1846.49	4661.8
1831.81	4731.95
1817.1	4823.14
1802.35	4759.79
1787.56	4840.97
1772.75	4827.37
1757.89	4785.54
1743.01	4788.5
1728.09	4847.65
1713.13	4822.34
1698.14	4703.83
1683.11	4702.18
1668.05	4709.79
1652.95	4545.96
1637.82	4632.39
1622.65	4492.49
1607.45	4580.88
1592.21	4627.53
1576.93	4651.05
1561.62	4669.85
1546.28	4665.75
1530.89	4713.92
1515.48	4732.36
1500.02	4535.76
1484.53	4500.3
1469	4469.47
1453.44	4497.16
1437.84	4623.3
1422.2	4464.88
1406.53	4501.22
1390.82	4441.67
1375.07	4360.17
1359.28	4358.76
1343.46	4319.76
1327.6	4426.41
1311.7	4492.94
1295.77	4335.33
1279.79	4452.04
1263.78	4282.12
1247.73	4254.56
1231.65	4509.64
1215.52	4655.08
1199.36	4687.31
1183.16	4848.84
1166.92	5009.56
1150.64	5392.85
1134.32	5680.01
1117.97	6188.07
1101.57	6798.16
1085.14	7298.94
1068.66	7971.32
1052.15	8782.29
1035.6	9245.06
1019.01	9732.96
1002.38	10018.8
985.705	9818.69
968.994	9699
952.244	9460.85
935.453	9396.59
918.621	9021
901.75	8638.85
884.836	7888.43
867.885	7318.91
850.891	6877.55
833.855	6653.76
816.779	6598.88
799.664	6779.1
782.506	6960.45
765.307	6823.77
748.066	7042.57
730.783	7318.93
713.459	7396.14
696.094	7589.68
678.686	7784.25
661.234	7989.83
643.742	7880.59
626.209	8270.26
608.631	8854.89
591.012	9529.89
573.348	10439.1
555.643	10858
537.895	11284.7
520.102	11839
502.268	12853
484.389	12857
466.467	12248.3
448.5	11588
430.49	11635.5
412.438	11390.2
394.338	10839
376.197	10762.4
358.01	10751.5
339.779	10698.4
321.504	10427.3
303.182	10674.7
284.816	10713.3
266.406	10631.9
247.949	10819.9
229.449	11150.5
210.902	11153.2
192.309	11417.3
173.67	12177
154.986	12526.8
136.256	13233.2
117.479	13878.3
98.6543	14288
79.7852	14682.5
60.8691	13820.1
51.3926	10936.5

File: r183.txt
#Wave		#Intensity
4002.1	15037.4
3992.31	15023.9
3982.5	14573.1
3972.67	14657.7
3962.82	15000.9
3952.94	14896.4
3943.04	14714.6
3933.12	14709.7
3923.18	14757.6
3913.21	14401.7
3903.22	14547.9
3893.21	14452.4
3883.18	14493.1
3873.12	14603.1
3863.04	14438.6
3852.94	14510
3842.82	14867.7
3832.67	14548.4
3822.5	14412.6
3812.31	14490.1
3802.1	14710.8
3791.86	14469.5
3781.6	14614.3
3771.31	14918.1
3761	14955.9
3750.67	14820.8
3740.32	15105
3729.94	15084.7
3719.54	15037.4
3709.12	15067.5
3698.67	15361.7
3688.2	15567.7
3677.71	15899.3
3667.19	15930.1
3656.65	16461.6
3646.09	17076.7
3635.5	18019.2
3624.88	18479.6
3614.25	19440.8
3603.59	19840
3592.9	20299.5
3582.2	20025.5
3571.46	20143.5
3560.71	20299.9
3549.93	20089
3539.12	19775.4
3528.29	20102.4
3517.44	20144.3
3506.56	19768.1
3495.66	19874.6
3484.74	19554.8
3473.79	19878.2
3462.81	19817.7
3451.81	19827.3
3440.79	19294.5
3429.74	19716.4
3418.66	19069.2
3407.56	19067.4
3396.44	19106.3
3385.29	19000.8
3374.11	19042.7
3362.92	18800.1
3351.69	18698.8
3340.44	18865.1
3329.17	19120.5
3317.87	18663
3306.54	18868.1
3295.19	19183
3283.81	18811.1
3272.41	19041.8
3260.98	18784.9
3249.53	18898.4
3238.05	18920
3226.54	19166.2
3215.01	19380.9
3203.45	19285.9
3191.87	19632
3180.26	19714.3
3168.62	19790.2
3156.96	19964.6
3145.28	19605.7
3133.56	19358.6
3121.82	19812.4
3110.05	19545
3098.26	19687.8
3086.44	19806.2
3074.59	19540.3
3062.72	19681.9
3050.82	19822.7
3038.89	20100.5
3026.94	19727.7
3014.96	19601.5
3002.95	20008.7
2990.91	19478.5
2978.85	19669.4
2966.76	19954.7
2954.64	19828.9
2942.5	20184.4
2930.33	20362.9
2918.13	20428.8
2905.9	20377
2893.65	20259.7
2881.36	19818.3
2869.05	20085.9
2856.71	20054.8
2844.35	20066
2831.96	19617.3
2819.53	19733.4
2807.08	19919
2794.6	19834.8
2782.1	19957.7
2769.56	19965.5
2757	20276.6
2744.41	20036.3
2731.79	19860.7
2719.14	19898.7
2706.46	19908.8
2693.75	19750.9
2681.02	19524.9
2668.25	19571
2655.46	19641.4
2642.64	19727.8
2629.79	19517.1
2616.91	19347.9
2604	19295.9
2591.06	19476.3
2578.09	19353.9
2565.09	19482.1
2552.06	19542.4
2539	19680.1
2525.92	19504.4
2512.8	19518.7
2499.65	19046.1
2486.47	19281.3
2473.27	19028.3
2460.03	19048.3
2446.76	19318.5
2433.46	19642.6
2420.13	19474.5
2406.78	19045.3
2393.39	18923.5
2379.97	18599
2366.52	18190
2353.03	17596
2339.52	17449.8
2325.98	17389.2
2312.4	17156.3
2298.8	16641.6
2285.16	16270.2
2271.49	16245.8
2257.79	16336.2
2244.06	15983
2230.3	15763.5
2216.51	15780.6
2202.68	15433.3
2188.82	15425.7
2174.93	15596.7
2161.01	15390.1
2147.06	15402.3
2133.07	15401.9
2119.05	15426.4
2105	15047.5
2090.92	14774.5
2076.81	14824.7
2062.66	14758.5
2048.48	14556.8
2034.27	14542.9
2020.02	14357.2
2005.74	14284.9
1991.43	13971
1977.09	13665.8
1962.71	13340
1948.29	13197.6
1933.85	13290.5
1919.37	13298.4
1904.86	13180.9
1890.31	12902.8
1875.74	13098.4
1861.12	12663.7
1846.48	12553.2
1831.79	12400.2
1817.08	11834.5
1802.33	11972.9
1787.55	11912
1772.73	11712.1
1757.88	11729.6
1742.99	11707
1728.07	11581.4
1713.11	11645.6
1698.12	11285
1683.09	11179.6
1668.03	11072.3
1652.93	10801
1637.8	10401.5
1622.63	10031.4
1607.43	9943.61
1592.19	9803.37
1576.91	9766.71
1561.6	9800.95
1546.26	9730.17
1530.88	9580.1
1515.46	9464.68
1500	9150.67
1484.51	8826.78
1468.98	8745.27
1453.42	8569.75
1437.82	8668.39
1422.18	8341.71
1406.51	8313.17
1390.8	8019.9
1375.05	7883.36
1359.26	8008.75
1343.44	8000.93
1327.58	8026.15
1311.68	7908.25
1295.75	7707.48
1279.77	7352.2
1263.76	7435.27
1247.71	7500.47
1231.63	7684.84
1215.5	7861.79
1199.34	8094.08
1183.14	8547.48
1166.9	9571.31
1150.62	10912.4
1134.3	12731.2
1117.95	15107.8
1101.55	17797.1
1085.12	18724.9
1068.64	17986.3
1052.13	15508.7
1035.58	13632
1018.99	12489.1
1002.36	11353.6
985.684	10517
968.973	9640.39
952.223	8772.08
935.43	8678.24
918.6	8526.61
901.727	8303.13
884.814	8109.6
867.861	7615.85
850.869	7239.61
833.834	6930.8
816.758	6928.49
799.641	7122.22
782.484	7457.6
765.285	7309.57
748.043	7249.39
730.762	7215.74
713.438	7832.01
696.07	8409.02
678.662	9621.83
661.213	10556.2
643.721	11915.8
626.186	13115.1
608.607	14543.3
590.988	16430.7
573.326	17879.4
555.619	18708.8
537.871	16341
520.08	14002.4
502.244	13888
484.365	13807.3
466.443	13664.5
448.477	13170
430.467	13011.7
412.414	12710.9
394.316	12351.5
376.174	12452.3
357.986	12464.2
339.756	12460.6
321.479	12057.1
303.158	11895.9
284.793	11514.6
266.383	11509.2
247.926	11615.4
229.424	11961.1
210.877	11839.3
192.285	12411.9
173.646	12764
154.963	13159.2
136.23	13851
117.455	14630.5
101.322	14731.4